   Detailed Percentile spectrum:
       Value   Percentile   TotalCount 1/(1-Percentile)

       0.829     0.000000            1         1.00
      32.351     0.100000        10846         1.11
      43.903     0.200000        21676         1.25
      57.567     0.300000        32502         1.43
      70.719     0.400000        43342         1.67
      80.575     0.500000        54187         2.00
      87.935     0.550000        59590         2.22
      94.655     0.600000        65026         2.50
     100.735     0.650000        70432         2.86
     106.687     0.700000        75844         3.33
     115.007     0.750000        81276         4.00
     118.783     0.775000        83979         4.44
     122.431     0.800000        86683         5.00
     127.103     0.825000        89396         5.71
     130.623     0.850000        92130         6.67
     136.831     0.875000        94832         8.00
     139.903     0.887500        96204         8.89
     142.079     0.900000        97522        10.00
     144.895     0.912500        98885        11.43
     149.631     0.925000       100242        13.33
     154.623     0.937500       101573        16.00
     157.183     0.943750       102257        17.78
     160.383     0.950000       102930        20.00
     165.119     0.956250       103608        22.86
     167.679     0.962500       104278        26.67
     169.343     0.968750       104989        32.00
     170.367     0.971875       105321        35.56
     172.415     0.975000       105626        40.00
     176.255     0.978125       105976        45.71
     178.303     0.981250       106307        53.33
     180.223     0.984375       106646        64.00
     181.503     0.985938       106819        71.11
     183.423     0.987500       106993        80.00
     184.319     0.989062       107151        91.43
     185.343     0.990625       107341       106.67
     185.983     0.992188       107507       128.00
     186.367     0.992969       107581       142.22
     187.007     0.993750       107671       160.00
     187.647     0.994531       107748       182.86
     188.799     0.995313       107830       213.33
     189.823     0.996094       107924       256.00
     190.079     0.996484       107959       284.44
     190.847     0.996875       108000       320.00
     192.255     0.997266       108041       365.71
     193.023     0.997656       108082       426.67
     193.535     0.998047       108135       512.00
     193.791     0.998242       108148       568.89
     194.047     0.998437       108165       640.00
     194.431     0.998633       108192       731.43
     194.559     0.998828       108208       853.33
     194.943     0.999023       108237      1024.00
     195.071     0.999121       108255      1137.78
     195.071     0.999219       108255      1280.00
     195.199     0.999316       108264      1462.86
     195.327     0.999414       108276      1706.67
     195.455     0.999512       108283      2048.00
     195.711     0.999561       108291      2275.56
     195.839     0.999609       108294      2560.00
     195.967     0.999658       108299      2925.71
     196.223     0.999707       108304      3413.33
     196.351     0.999756       108311      4096.00
     196.351     0.999780       108311      4551.11
     196.479     0.999805       108315      5120.00
     196.607     0.999829       108319      5851.43
     196.607     0.999854       108319      6826.67
     196.735     0.999878       108321      8192.00
     196.863     0.999890       108323      9102.22
     196.991     0.999902       108326     10240.00
     196.991     0.999915       108326     11702.86
     197.119     0.999927       108327     13653.33
     197.247     0.999939       108330     16384.00
     197.247     0.999945       108330     18204.44
     197.247     0.999951       108330     20480.00
     197.247     0.999957       108330     23405.71
     197.375     0.999963       108331     27306.67
     197.375     0.999969       108331     32768.00
     197.631     0.999973       108332     36408.89
     197.631     0.999976       108332     40960.00
     197.631     0.999979       108332     46811.43
     197.759     0.999982       108333     54613.33
     197.759     0.999985       108333     65536.00
     197.759     0.999986       108333     72817.78
     197.759     0.999988       108333     81920.00
     197.759     0.999989       108333     93622.86
     198.399     0.999991       108334    109226.67
     198.399     1.000000       108334          inf
